Folder: Internship_2019-2020/Assignment 1

Note: README.md
# Internship_2019-2020
 Supervised by Andrew Ylitalo

File: nanoparticle_scattering_data_rev.csv
particle concentration [ppm],q [1/A],mean intensity [a.u.],standard deviation of intensity [a.u.],background-subtracted intensity [a.u.],standard deviation of background-subtracted intensity [a.u.]
0.0,0.00269319,2588.1,31.5471,0.0,31.5471
0.0,0.00574547,317.665,2.44987,0.0,2.44987
0.0,0.00879774,114.444,1.06268,0.0,1.06268
0.0,0.01185,64.7574,0.948071,0.0,0.948071
0.0,0.0149023,46.6646,0.422376,0.0,0.422376
0.0,0.0179546,38.6059,0.449862,0.0,0.449862
0.0,0.0210068,34.6605,0.395141,0.0,0.395141
0.0,0.0240591,32.5637,0.408464,0.0,0.408464
0.0,0.0271113,31.0649,0.197367,0.0,0.197367
0.0,0.0301636,30.3996,0.389168,0.0,0.389168
0.0,0.0332158,29.8556,0.357877,0.0,0.357877
0.0,0.036268,29.6849,0.295018,0.0,0.295018
0.0,0.0393202,29.3712,0.385137,0.0,0.385137
0.0,0.0423724,29.3493,0.32435,0.0,0.32435
0.0,0.0454246,29.2772,0.206368,0.0,0.206368
0.0,0.0484768,29.2622,0.176066,0.0,0.176066
0.0,0.051529,29.0475,0.22723,0.0,0.22723
0.0,0.0545811,28.9625,0.255654,0.0,0.255654
0.0,0.0576333,28.6246,0.188818,0.0,0.188818
0.0,0.0606854,28.5931,0.0985487,0.0,0.0985487
0.0,0.0637375,28.3089,0.189474,0.0,0.189474
0.0,0.0667896,28.431,0.138366,0.0,0.138366
0.0,0.0698416,28.3143,0.21249,0.0,0.21249
0.0,0.0728937,28.3557,0.201594,0.0,0.201594
0.0,0.0759457,28.2426,0.117299,0.0,0.117299
0.0,0.0789977,28.2672,0.21036,0.0,0.21036
0.0,0.0820497,28.1674,0.134445,0.0,0.134445
0.0,0.0851016,28.2881,0.226725,0.0,0.226725
0.0,0.0881536,28.2635,0.190316,0.0,0.190316
1e-06,0.00395001,882.88,7.76575,12.5657,9.14196
1e-06,0.00700229,193.692,1.43358,0.914286,2.29721
1e-06,0.0100546,86.6552,0.841894,0.413793,1.27058
1e-06,0.0131068,55.6932,0.7535,0.206838,0.936254
1e-06,0.0161591,43.0496,0.723102,0.363309,0.930868
1e-06,0.0192114,36.9734,0.411549,-0.00532544,0.568334
1e-06,0.0222636,33.4937,0.429713,-0.0206349,0.730794
1e-06,0.0253159,31.9397,0.361532,0.0949772,0.473606
1e-06,0.0283681,30.8498,0.245339,-0.00954357,0.402414
1e-06,0.0314204,30.1517,0.347054,-0.0749077,0.400873
1e-06,0.0344726,29.9153,0.250012,-0.172203,0.318142
1e-06,0.0375248,29.5774,0.140911,0.105199,0.335397
1e-06,0.040577,29.4854,0.15588,0.0901961,0.344382
1e-06,0.0436292,29.3464,0.247704,0.03219,0.306263
1e-06,0.0466814,29.2891,0.342068,0.245255,0.405375
1e-06,0.0497336,29.2841,0.114107,-0.0501134,0.229906
1e-06,0.0527857,29.0959,0.226459,0.126134,0.334144
1e-06,0.0558379,28.8809,0.226268,0.0195519,0.318843
1e-06,0.05889,28.8407,0.296635,0.252783,0.345942
1e-06,0.0619421,28.7398,0.17704,0.230811,0.294377
1e-06,0.0649942,28.4676,0.230496,-0.0381282,0.30592
1e-06,0.0680463,28.5471,0.187952,0.0717138,0.336662
1e-06,0.0710983,28.358,0.0683112,-0.0670382,0.154952
1e-06,0.0741504,28.277,0.197344,0.00972222,0.259665
1e-06,0.0772024,28.2814,0.186834,0.0327327,0.246346
1e-06,0.0802544,28.2873,0.231657,0.00584046,0.256569
1e-06,0.0833064,28.4541,0.187267,0.188904,0.234781
1e-06,0.0863583,28.4105,0.236081,0.119761,0.316568
1e-06,0.0894102,28.4091,0.192664,0.0721795,0.254574
1e-05,0.00520683,426.065,4.27536,16.5612,7.18625
1e-05,0.00825911,132.399,1.58734,1.14267,2.8337
1e-05,0.0113114,69.4931,0.949998,-0.0574257,1.33898
1e-05,0.0143637,48.3214,0.859085,-0.574809,0.966291
1e-05,0.0174159,39.222,0.468611,-0.363522,0.566216
1e-05,0.0204682,34.7952,0.526661,-0.291979,0.834287
1e-05,0.0235204,32.599,0.522378,-0.334483,0.64394
1e-05,0.0265727,31.0477,0.29196,-0.167782,0.518779
1e-05,0.0296249,30.3629,0.445868,-0.16332,0.646907
1e-05,0.0326772,29.9594,0.195283,-0.0382253,0.325861
1e-05,0.0357294,29.4845,0.268936,-0.201618,0.340941
1e-05,0.0387816,29.2899,0.291785,-0.179251,0.36059
1e-05,0.0418338,29.2179,0.39718,-0.219241,0.503074
1e-05,0.044886,29.2386,0.183331,-0.0773779,0.267026
1e-05,0.0479382,29.0784,0.226352,0.00551559,0.344694
1e-05,0.0509904,28.809,0.213559,-0.246374,0.341175
1e-05,0.0540425,28.8894,0.219163,-0.0243129,0.286011
1e-05,0.0570946,28.6594,0.193048,0.0421782,0.310597
1e-05,0.0601468,28.5053,0.200076,-0.10565,0.307679
1e-05,0.0631989,28.3698,0.147571,-0.108797,0.205982
1e-05,0.066251,28.1839,0.178317,-0.281834,0.323898
1e-05,0.069303,28.3715,0.172683,0.0698541,0.245573
1e-05,0.0723551,28.2128,0.203852,-0.0264386,0.26759
1e-05,0.0754071,28.2609,0.240975,-0.14812,0.285514
1e-05,0.0784591,28.149,0.132638,-0.0941092,0.241096
1e-05,0.0815111,28.24,0.202493,0.03875,0.236841
1e-05,0.084563,28.1582,0.258465,-0.0846774,0.313321
1e-05,0.087615,28.3765,0.337153,0.0624031,0.361935
0.0001,0.00341137,1350.72,6.72667,54.3581,12.1945
0.0001,0.00646365,238.395,2.33602,3.22881,3.41869
0.0001,0.00951593,95.3828,1.45812,-0.47931,1.75418
0.0001,0.0125682,57.2867,0.576149,-1.74159,0.822047
0.0001,0.0156205,42.7942,0.425839,-1.41511,0.600188
0.0001,0.0186727,36.6373,0.670934,-0.907101,0.737208
0.0001,0.021725,33.2351,0.638549,-0.64973,0.848908
0.0001,0.0247773,31.447,0.422362,-0.62765,0.609027
0.0001,0.0278295,30.5598,0.269617,-0.73112,0.376383
0.0001,0.0308817,29.9625,0.288987,-0.225843,0.410252
0.0001,0.033934,29.4048,0.398173,-0.368601,0.482484
0.0001,0.0369862,29.2833,0.238265,-0.240694,0.4086
0.0001,0.0400384,29.1542,0.278212,-0.36029,0.383254
0.0001,0.0430906,28.9011,0.263289,-0.621526,0.314349
0.0001,0.0461428,28.79,0.29657,-0.501754,0.368619
0.0001,0.049195,28.9031,0.145785,-0.320567,0.242821
0.0001,0.0522471,28.7549,0.171583,-0.208428,0.265363
0.0001,0.0552993,28.6724,0.165134,-0.225895,0.268545
0.0001,0.0583514,28.4928,0.210074,0.00386847,0.386684
0.0001,0.0614035,28.3469,0.226711,-0.359546,0.328222
0.0001,0.0644556,28.3034,0.166663,-0.128546,0.303205
0.0001,0.0675077,28.1978,0.276185,-0.137138,0.320496
0.0001,0.0705598,28.2011,0.179883,-0.197432,0.282426
0.0001,0.0736118,28.1788,0.133947,-0.130139,0.223109
0.0001,0.0766638,28.1408,0.179737,-0.00927835,0.226247
0.0001,0.0797158,28.2506,0.147556,-0.0771269,0.206157
0.0001,0.0827678,28.1027,0.142863,-0.17619,0.241682
0.0001,0.0858197,28.1557,0.186854,-0.124381,0.23474
0.0001,0.0888717,28.0876,0.162155,-0.299123,0.222549
0.001,0.00466819,556.731,7.26161,9.54222,10.5371
0.001,0.00772047,150.755,2.12347,-1.62055,3.04569
0.001,0.0107727,73.4586,1.09855,-2.41313,1.66514
0.001,0.013825,49.596,0.663771,-1.592,0.840994
0.001,0.0168773,39.3471,0.765708,-1.19216,0.858763
0.001,0.0199296,34.8663,0.331554,-0.803867,0.618966
0.001,0.0229818,32.4338,0.181655,-0.877778,0.434058
0.001,0.0260341,30.6877,0.383088,-0.71617,0.498692
0.001,0.0290863,30.0004,0.40631,-0.549805,0.607085
0.001,0.0321385,29.594,0.368598,-0.679649,0.392126
0.001,0.0351908,29.1569,0.32344,-0.720128,0.423324
0.001,0.038243,28.9935,0.456705,-0.351335,0.532486
0.001,0.0412952,28.9091,0.247429,-0.690028,0.331873
0.001,0.0443474,28.7494,0.148479,-0.733592,0.248034
0.001,0.0473996,28.7241,0.122136,-0.316545,0.25466
0.001,0.0504517,28.595,0.165442,-0.677346,0.303809
0.001,0.0535039,28.5094,0.189765,-0.413943,0.253542
0.001,0.056556,28.4313,0.249799,-0.253535,0.387835
0.001,0.0596082,28.3389,0.157625,-0.214894,0.254932
0.001,0.0626603,28.2777,0.212814,-0.282931,0.306068
0.001,0.0657124,28.1121,0.309988,-0.281976,0.362401
0.001,0.0687644,28.1812,0.209752,-0.142596,0.285876
0.001,0.0718165,28.1744,0.255618,-0.13456,0.28657
0.001,0.0748685,28.0548,0.222519,-0.274347,0.270657
0.001,0.0779205,28.0732,0.199489,-0.152822,0.279528
0.001,0.0809725,28.0028,0.159738,-0.236746,0.276401
0.001,0.0840245,27.9865,0.291621,-0.287145,0.334335
0.001,0.0870764,28.2214,0.21295,-0.219484,0.257419
0.01,0.00287273,2231.26,9.5461,72.688,22.2515
0.01,0.00592501,291.772,4.98391,-1.58491,5.69877
0.01,0.00897729,105.768,1.24415,-3.27176,1.75935
0.01,0.0120296,60.4178,0.707324,-2.7243,1.29896
0.01,0.0150818,44.18,0.617966,-1.84741,0.837346
0.01,0.0181341,37.191,0.531806,-0.998204,0.610418
0.01,0.0211864,33.6899,0.403237,-0.852381,0.535665
0.01,0.0242386,31.4928,0.304579,-0.969683,0.529509
0.01,0.0272909,30.6343,0.280389,-0.447755,0.40191
0.01,0.0303431,29.7393,0.232909,-0.548727,0.487495
0.01,0.0333953,29.5472,0.27178,-0.208638,0.438083
0.01,0.0364476,29.197,0.234012,-0.436937,0.293154
0.01,0.0394998,28.9934,0.160904,-0.3317,0.354305
0.01,0.042552,28.6577,0.246477,-0.697375,0.358443
0.01,0.0456042,28.8316,0.274551,-0.564444,0.386687
0.01,0.0486563,28.8199,0.29394,-0.387298,0.314963
0.01,0.0517085,28.698,0.118112,-0.301987,0.227075
0.01,0.0547607,28.6051,0.204488,-0.396945,0.336501
0.01,0.0578128,28.4911,0.216657,-0.153398,0.317895
0.01,0.0608649,28.4614,0.19628,-0.180791,0.230752
0.01,0.063917,28.3392,0.139942,0.0110708,0.303067
0.01,0.0669691,28.2257,0.211417,-0.239523,0.233728
0.01,0.0700212,28.2302,0.173022,-0.0868637,0.312028
0.01,0.0730732,28.2082,0.176998,-0.138986,0.281298
0.01,0.0761252,28.2312,0.164484,-0.0192825,0.212291
0.01,0.0791772,28.1126,0.177006,-0.160173,0.239332
0.01,0.0822292,28.059,0.151238,-0.173296,0.190738
0.01,0.0852812,28.1633,0.217725,-0.14596,0.31424
0.01,0.0883331,28.0371,0.20405,-0.27009,0.27275
50.0,0.00412955,4384.69,119.228,3612.26,119.332
50.0,0.00718183,2185.585,74.2247,2004.12,74.2706
50.0,0.0102341,897.666,29.0071,814.115,29.0269
50.0,0.0132864,253.3,7.87045,198.938,7.88546
50.0,0.0163387,60.5248,0.746833,18.3931,0.836298
50.0,0.0193909,50.8575,0.825752,14.3497,0.958909
50.0,0.0224432,56.0911,0.567911,22.6276,0.718863
50.0,0.0254954,42.7707,0.299024,10.9756,0.460898
50.0,0.0285477,32.4936,0.256819,1.76853,0.404987
50.0,0.0315999,32.9541,0.45705,2.7147,0.499633
50.0,0.0346521,34.3939,0.366494,4.28115,0.442422
50.0,0.0377044,32.4574,0.284886,2.98723,0.399294
50.0,0.0407566,30.0242,0.282529,0.596901,0.420612
50.0,0.0438088,29.8452,0.267275,0.50874,0.36284
50.0,0.046861,30.0752,0.332539,1.05109,0.382877
50.0,0.0499131,29.7377,0.214805,0.394023,0.274169
50.0,0.0529653,29.0755,0.18198,0.0631236,0.304313
50.0,0.0560174,28.7532,0.211046,-0.102062,0.310017
50.0,0.0590695,28.8422,0.233034,0.280943,0.329961
50.0,0.0621217,28.5351,0.232359,-0.0205937,0.318909
50.0,0.0651738,28.3066,0.167903,-0.167201,0.226238
50.0,0.0682258,28.2294,0.19745,-0.30188,0.362553
50.0,0.0712779,28.2535,0.230923,-0.118985,0.285033
50.0,0.0743299,28.2127,0.233847,-0.0329212,0.293001
50.0,0.0773819,28.1708,0.172909,-0.114903,0.249951
50.0,0.0804339,28.2652,0.249086,-0.0149341,0.298729
50.0,0.0834859,28.2167,0.228795,0.0166895,0.263716
50.0,0.0865378,28.2119,0.160806,-0.090719,0.239766
50.0,0.0895898,28.128,0.195452,-0.204598,0.258684
50.0,0.0897693,28.11,0.16763,-0.228607,0.230313