Folder: Internship_2019-2020/internship/data

Note: internship/data/flow_hs104_174.txt
# file created by $Id: average_rebin_scans 131 2018-07-09 19:48:33Z dndadmin $
# using q from column 2, I from column 3 and sigma(I) from column 4.
# saxs scale = 1.000000
# saxs constant = 0.000000
# maxs scale = 1.000000
# maxs constant = 0.000000
# waxs scale = 1.000000
# waxs constant = 0.000000
# sigma cutoff from Chauvenet's criterion based on sigma(I) from column 4
# bubble rejection sigma cutoff from Chauvenet's criterion
# postscale value cutoff = -10.000000
# 0.001000 <= allowed saxs q <= 100.000000
# 0.001000 <= allowed maxs q <= 100.000000
# 0.001000 <= allowed waxs q <= 100.000000
# variance is smoothed over 1 bins
# a file will be rejected if more than 0.25 times its points are rejected
# use original bins
#   File list input:
#     flow/plot_files/flow_hs104_174_0000.txt 
#     flow/plot_files/flow_hs104_174_0001.txt 
#     flow/plot_files/flow_hs104_174_0002.txt 
#     flow/plot_files/flow_hs104_174_0003.txt 
#     flow/plot_files/flow_hs104_174_0004.txt 
#     flow/plot_files/flow_hs104_174_0005.txt 
#     flow/plot_files/flow_hs104_174_0006.txt 
#     flow/plot_files/flow_hs104_174_0007.txt 
#     flow/plot_files/flow_hs104_174_0008.txt 
#     flow/plot_files/flow_hs104_174_0009.txt 
#
# *** read in points which are within q and value cutoffs ***
# flow/plot_files/flow_hs104_174_0000.txt has 1059 valid points, 0 outside the q cutoffs, and 0 less than the -10.0 cutoff
# flow/plot_files/flow_hs104_174_0001.txt has 1059 valid points, 0 outside the q cutoffs, and 0 less than the -10.0 cutoff
# flow/plot_files/flow_hs104_174_0002.txt has 1059 valid points, 0 outside the q cutoffs, and 0 less than the -10.0 cutoff
# flow/plot_files/flow_hs104_174_0003.txt has 1059 valid points, 0 outside the q cutoffs, and 0 less than the -10.0 cutoff
# flow/plot_files/flow_hs104_174_0004.txt has 1059 valid points, 0 outside the q cutoffs, and 0 less than the -10.0 cutoff
# flow/plot_files/flow_hs104_174_0005.txt has 1059 valid points, 0 outside the q cutoffs, and 0 less than the -10.0 cutoff
# flow/plot_files/flow_hs104_174_0006.txt has 1059 valid points, 0 outside the q cutoffs, and 0 less than the -10.0 cutoff
# flow/plot_files/flow_hs104_174_0007.txt has 1059 valid points, 0 outside the q cutoffs, and 0 less than the -10.0 cutoff
# flow/plot_files/flow_hs104_174_0008.txt has 1059 valid points, 0 outside the q cutoffs, and 0 less than the -10.0 cutoff
# flow/plot_files/flow_hs104_174_0009.txt has 1059 valid points, 0 outside the q cutoffs, and 0 less than the -10.0 cutoff
# 10590 total points read in
# *** initial unbinned Chauvenet's criterion outlier file (ie bubble) rejection ***
# *** rebinning and final rejection cycles ***
# flow/plot_files/flow_hs104_174_0000.txt has had 53 points rejected as outliers
# flow/plot_files/flow_hs104_174_0001.txt has had 87 points rejected as outliers
# flow/plot_files/flow_hs104_174_0002.txt has had 57 points rejected as outliers
# flow/plot_files/flow_hs104_174_0003.txt has had 78 points rejected as outliers
#

Note: internship/data/flow_hs104_175.txt
# file created by $Id: average_rebin_scans 131 2018-07-09 19:48:33Z dndadmin $
# using q from column 2, I from column 3 and sigma(I) from column 4.
# saxs scale = 1.000000
# saxs constant = 0.000000
# maxs scale = 1.000000
# maxs constant = 0.000000
# waxs scale = 1.000000
# waxs constant = 0.000000
# sigma cutoff from Chauvenet's criterion based on sigma(I) from column 4
# bubble rejection sigma cutoff from Chauvenet's criterion
# postscale value cutoff = -10.000000
# 0.001000 <= allowed saxs q <= 100.000000
# 0.001000 <= allowed maxs q <= 100.000000
# 0.001000 <= allowed waxs q <= 100.000000
# variance is smoothed over 1 bins
# a file will be rejected if more than 0.25 times its points are rejected
# use original bins
#   File list input:
#     flow/plot_files/flow_hs104_175_0000.txt 
#     flow/plot_files/flow_hs104_175_0001.txt 
#     flow/plot_files/flow_hs104_175_0002.txt 
#     flow/plot_files/flow_hs104_175_0003.txt 
#     flow/plot_files/flow_hs104_175_0004.txt 
#     flow/plot_files/flow_hs104_175_0005.txt 
#     flow/plot_files/flow_hs104_175_0006.txt 
#     flow/plot_files/flow_hs104_175_0007.txt 
#     flow/plot_files/flow_hs104_175_0008.txt 
#     flow/plot_files/flow_hs104_175_0009.txt 
#
# *** read in points which are within q and value cutoffs ***
# flow/plot_files/flow_hs104_175_0000.txt has 1059 valid points, 0 outside the q cutoffs, and 0 less than the -10.0 cutoff
# flow/plot_files/flow_hs104_175_0001.txt has 1059 valid points, 0 outside the q cutoffs, and 0 less than the -10.0 cutoff
# flow/plot_files/flow_hs104_175_0002.txt has 1059 valid points, 0 outside the q cutoffs, and 0 less than the -10.0 cutoff
# flow/plot_files/flow_hs104_175_0003.txt has 1059 valid points, 0 outside the q cutoffs, and 0 less than the -10.0 cutoff
# flow/plot_files/flow_hs104_175_0004.txt has 1059 valid points, 0 outside the q cutoffs, and 0 less than the -10.0 cutoff
# flow/plot_files/flow_hs104_175_0005.txt has 1059 valid points, 0 outside the q cutoffs, and 0 less than the -10.0 cutoff
# flow/plot_files/flow_hs104_175_0006.txt has 1059 valid points, 0 outside the q cutoffs, and 0 less than the -10.0 cutoff
# flow/plot_files/flow_hs104_175_0007.txt has 1059 valid points, 0 outside the q cutoffs, and 0 less than the -10.0 cutoff
# flow/plot_files/flow_hs104_175_0008.txt has 1059 valid points, 0 outside the q cutoffs, and 0 less than the -10.0 cutoff
# flow/plot_files/flow_hs104_175_0009.txt has 1059 valid points, 0 outside the q cutoffs, and 0 less than the -10.0 cutoff
# 10590 total points read in
# *** initial unbinned Chauvenet's criterion outlier file (ie bubble) rejection ***
# *** rebinning and final rejection cycles ***
# flow/plot_files/flow_hs104_175_0000.txt has had 63 points rejected as outliers
# flow/plot_files/flow_hs104_175_0001.txt has had 74 points rejected as outliers
# flow/plot_files/flow_hs104_175_0002.txt has had 73 points rejected as outliers
# flow/plot_files/flow_hs104_175_0003.txt has had 74 points rejected as outliers
#

Note: internship/data/README.txt
C:\Users\Andy.DESKTOP-CFRG05F\OneDrive - California Institute of Technology\Documents\Research\Kornfield\DATA\APS_2019-1_Beamtime\SAXS\flow

-SAXS_IvsQ_<1>e<2>ppm_SiO2_H2O.csv
	+I(q) [arb. units], q [1/A]
	+<1>*10^<2> = concentration in ppm

-SAXS_flow_IvsQ.csv
	+I(q) for different concentrations

File: SAXS_IvsQ_1.000000e+00e-5ppm_SiO2_H2O.csv
0.0017955,26.966
0.001976,86.747
0.0021565,166.31
0.0023369,206.4
0.0025174,143.35
0.0026979,121.66
0.0028784,107.72
0.0030589,81.278
0.0032394,68.455
0.0034199,59.013
0.0036004,49.503
0.0037809,39.599
0.0039614,32.859
0.0041419,25.504
0.0043224,20.627
0.0045029,16.867
0.0046834,15.337
0.0048639,14.048
0.0050444,12.019
0.0052249,10.94
0.0054054,10.225
0.0055859,8.4871
0.0057664,7.4297
0.0059469,6.5321
0.0061274,6.3044
0.0063079,6.2189
0.0064883,5.7483
0.0066688,5.0512
0.0068493,4.2734
0.0070298,3.7769
0.0072103,2.9985
0.0073908,2.2927
0.0075713,2.2827
0.0077518,1.8317
0.0079323,1.5092
0.0081128,1.6974
0.0082933,1.6484
0.0084738,1.1733
0.0086543,1.291
0.0088348,1.4716
0.0090153,1.3059
0.0091958,0.88313
0.0093763,0.44396
0.0095568,0.35416
0.0097373,0.19716
0.0099178,0.17353
0.010098,0.34032
0.010279,0.33333
0.010459,0.32967
0.01064,0.26559
0.01082,0.16732
0.011001,-0.037829
0.011181,-0.19636
0.011362,-0.099603
0.011542,-0.086077
0.011723,-0.23451
0.011903,-0.3807
0.012084,-0.37809
0.012264,-0.94116
0.012445,-0.81237
0.012625,-0.33979
0.012806,0.019422
0.012986,0.029993
0.013167,-0.24279
0.013347,-0.48251
0.013528,-0.45136
0.013708,-0.20593
0.013889,-0.093738
0.014069,-0.13507
0.01425,-0.30296
0.01443,-0.39928
0.014611,-0.32046
0.014791,-0.23015
0.014972,-0.18045
0.015152,-0.37864
0.015333,-0.44528
0.015513,-0.35238
0.015694,-0.14849
0.015874,-0.023909
0.016055,-0.082387
0.016235,-0.2431
0.016416,-0.31885
0.016596,-0.32457
0.016777,-0.30061
0.016957,-0.31737
0.017138,-0.31709
0.017318,-0.27508
0.017499,-0.27844
0.017679,-0.35889
0.01786,-0.38401
0.01804,-0.37044
0.018221,-0.37445
0.018401,-0.23324
0.018582,-0.20062
0.018762,-0.29178
0.018943,-0.37418
0.019123,-0.34978
0.019304,-0.2448
0.019484,-0.088678
0.019665,-0.015425
0.019845,-0.053256
0.020025,-0.14886
0.020206,-0.25212
0.020386,-0.27457
0.020567,-0.23226
0.020747,-0.18931
0.020928,-0.16486
0.021108,-0.19826
0.021289,-0.24739
0.021469,-0.24023
0.02165,-0.19872
0.02183,-0.22362
0.022011,-0.22126
0.022191,-0.14079
0.022372,-0.11112
0.022552,-0.13914
0.022733,-0.18722
0.022913,-0.16109
0.023094,-0.17696
0.023274,-0.23541
0.023455,-0.19603
0.023635,-0.17653
0.023816,-0.19416
0.023996,-0.21016
0.024177,-0.19061
0.024357,-0.2619
0.024538,-0.37309
0.024718,-0.30649
0.024899,-0.16892
0.025079,-0.13279
0.02526,-0.094708
0.02544,-0.10204
0.025621,-0.14075
0.025801,-0.20949
0.025982,-0.19465
0.026162,-0.17065
0.026343,-0.21299
0.026523,-0.25497
0.026704,-0.25416
0.026884,-0.22534
0.027065,-0.20869
0.027245,-0.18754
0.027426,-0.24439
0.027606,-0.26639
0.027787,-0.28775
0.027967,-0.32806
0.028148,-0.36689
0.028328,-0.34774
0.028509,-0.26484
0.028689,-0.24562
0.02887,-0.28111
0.02905,-0.28867
0.029231,-0.2147
0.029411,-0.19965
0.029592,-0.23253
0.029772,-0.28976
0.029953,-0.30587
0.030133,-0.30319
0.030314,-0.21705
0.030494,-0.094545
0.030675,0.011815
0.030855,-0.043211
0.031036,-0.15182
0.031216,-0.19882
0.031397,-0.23691
0.031577,-0.27116
0.031758,-0.30472
0.031938,-0.30384
0.032119,-0.28281
0.032299,-0.2642
0.03248,-0.21173
0.03266,-0.22611
0.032841,-0.24583
0.033021,-0.26908
0.033202,-0.23038
0.033382,-0.22003
0.033563,-0.34489
0.033743,-0.28653
0.033924,-0.25865
0.034104,-0.25112
0.034285,-0.24259
0.034465,-0.27749
0.034645,-0.33921
0.034826,-0.34468
0.035006,-0.25075
0.035187,-0.18364
0.035367,-0.15878
0.035548,-0.22248
0.035728,-0.23866
0.035909,-0.21692

File: SAXS_IvsQ_1e-2ppm_SiO2_H2O.csv
0.0017955,29.439
0.001976,71.504
0.0021565,134.05
0.0023369,148.65
0.0025174,96.267
0.0026979,84.792
0.0028784,73.978
0.0030589,58.313
0.0032394,43.402
0.0034199,33.653
0.0036004,29.046
0.0037809,21.843
0.0039614,17.101
0.0041419,13.1
0.0043224,9.062
0.0045029,5.8216
0.0046834,4.1698
0.0048639,4.9004
0.0050444,2.6678
0.0052249,2.2138
0.0054054,2.9548
0.0055859,2.9745
0.0057664,2.7514
0.0059469,1.8876
0.0061274,0.93061
0.0063079,0.31618
0.0064883,-0.54003
0.0066688,-1.3236
0.0068493,-1.872
0.0070298,-1.6987
0.0072103,-1.6823
0.0073908,-1.8637
0.0075713,-1.9917
0.0077518,-2.2094
0.0079323,-2.215
0.0081128,-2.3579
0.0082933,-2.6571
0.0084738,-3.1386
0.0086543,-3.0693
0.0088348,-2.7862
0.0090153,-2.7967
0.0091958,-2.9061
0.0093763,-2.8644
0.0095568,-2.7278
0.0097373,-2.8937
0.0099178,-3.0794
0.010098,-3.2207
0.010279,-3.2793
0.010459,-3.1342
0.01064,-2.8327
0.01082,-2.6081
0.011001,-2.5988
0.011181,-2.6479
0.011362,-2.6735
0.011542,-2.7315
0.011723,-2.794
0.011903,-2.7186
0.012084,-2.6023
0.012264,-2.9719
0.012445,-2.7262
0.012625,-2.2306
0.012806,-2.0187
0.012986,-1.9649
0.013167,-2.1994
0.013347,-2.3284
0.013528,-2.2871
0.013708,-2.0188
0.013889,-1.8884
0.014069,-1.9121
0.01425,-2.0563
0.01443,-2.1313
0.014611,-1.9107
0.014791,-1.6336
0.014972,-1.6054
0.015152,-1.7967
0.015333,-1.7709
0.015513,-1.588
0.015694,-1.4413
0.015874,-1.3632
0.016055,-1.3776
0.016235,-1.4954
0.016416,-1.5948
0.016596,-1.5933
0.016777,-1.3506
0.016957,-1.2073
0.017138,-1.1885
0.017318,-1.2465
0.017499,-1.2366
0.017679,-1.2244
0.01786,-1.2516
0.01804,-1.2397
0.018221,-1.2056
0.018401,-1.0193
0.018582,-1.0058
0.018762,-1.1315
0.018943,-1.1806
0.019123,-1.1738
0.019304,-1.1511
0.019484,-1.0538
0.019665,-0.92346
0.019845,-0.8856
0.020025,-0.86374
0.020206,-0.8563
0.020386,-0.82481
0.020567,-0.84627
0.020747,-0.84967
0.020928,-0.82112
0.021108,-0.80827
0.021289,-0.86651
0.021469,-0.84357
0.02165,-0.77243
0.02183,-0.79355
0.022011,-0.86147
0.022191,-0.91242
0.022372,-0.88127
0.022552,-0.82449
0.022733,-0.79721
0.022913,-0.78547
0.023094,-0.79067
0.023274,-0.80583
0.023455,-0.75073
0.023635,-0.74548
0.023816,-0.75459
0.023996,-0.7376
0.024177,-0.69937
0.024357,-0.78465
0.024538,-0.86779
0.024718,-0.81872
0.024899,-0.69399
0.025079,-0.62835
0.02526,-0.58749
0.02544,-0.6605
0.025621,-0.70722
0.025801,-0.76311
0.025982,-0.68377
0.026162,-0.62245
0.026343,-0.60614
0.026523,-0.64257
0.026704,-0.67345
0.026884,-0.67725
0.027065,-0.69718
0.027245,-0.68664
0.027426,-0.64972
0.027606,-0.59707
0.027787,-0.60707
0.027967,-0.67874
0.028148,-0.67455
0.028328,-0.63804
0.028509,-0.59427
0.028689,-0.55691
0.02887,-0.51932
0.02905,-0.55831
0.029231,-0.57985
0.029411,-0.56825
0.029592,-0.53227
0.029772,-0.54107
0.029953,-0.56224
0.030133,-0.5753
0.030314,-0.56757
0.030494,-0.51656
0.030675,-0.43983
0.030855,-0.46512
0.031036,-0.5133
0.031216,-0.5384
0.031397,-0.5661
0.031577,-0.57478
0.031758,-0.55247
0.031938,-0.57079
0.032119,-0.5948
0.032299,-0.56941
0.03248,-0.5017
0.03266,-0.49893
0.032841,-0.51261
0.033021,-0.52263
0.033202,-0.453
0.033382,-0.44135
0.033563,-0.5746
0.033743,-0.51014
0.033924,-0.49842
0.034104,-0.56602
0.034285,-0.55899
0.034465,-0.56545
0.034645,-0.59369
0.034826,-0.62811
0.035006,-0.60056
0.035187,-0.53805
0.035367,-0.47153
0.035548,-0.50662
0.035728,-0.52704
0.035909,-0.52321

File: SAXS_IvsQ_1e-3ppm_SiO2_H2O.csv
0.0017955,25.186
0.001976,64.559
0.0021565,122.61
0.0023369,141.44
0.0025174,93.214
0.0026979,80.23
0.0028784,65.102
0.0030589,48.099
0.0032394,39.704
0.0034199,33.23
0.0036004,28.601
0.0037809,21.39
0.0039614,14.895
0.0041419,7.6822
0.0043224,6.2638
0.0045029,5.9797
0.0046834,4.6887
0.0048639,2.9733
0.0050444,1.7335
0.0052249,1.2964
0.0054054,1.1904
0.0055859,1.2498
0.0057664,1.229
0.0059469,0.4068
0.0061274,-0.71024
0.0063079,-1.0025
0.0064883,-1.2591
0.0066688,-1.447
0.0068493,-2.1284
0.0070298,-1.6939
0.0072103,-1.8722
0.0073908,-2.3723
0.0075713,-2.7365
0.0077518,-2.9593
0.0079323,-3.263
0.0081128,-3.2219
0.0082933,-3.0971
0.0084738,-3.2164
0.0086543,-3.0473
0.0088348,-2.9133
0.0090153,-3.0242
0.0091958,-3.2005
0.0093763,-3.0831
0.0095568,-2.9543
0.0097373,-3.25
0.0099178,-3.1946
0.010098,-2.9428
0.010279,-3.0158
0.010459,-3.1145
0.01064,-2.9611
0.01082,-2.8415
0.011001,-2.7623
0.011181,-2.7895
0.011362,-2.7612
0.011542,-2.7694
0.011723,-2.7223
0.011903,-2.6534
0.012084,-2.6842
0.012264,-3.1336
0.012445,-2.9208
0.012625,-2.4819
0.012806,-2.2929
0.012986,-2.3435
0.013167,-2.4673
0.013347,-2.4987
0.013528,-2.3045
0.013708,-2.1058
0.013889,-1.9824
0.014069,-1.9474
0.01425,-2.0488
0.01443,-2.1997
0.014611,-2.2302
0.014791,-2.1272
0.014972,-2.0661
0.015152,-2.199
0.015333,-2.0941
0.015513,-1.8926
0.015694,-1.6323
0.015874,-1.4796
0.016055,-1.5025
0.016235,-1.6983
0.016416,-1.8496
0.016596,-1.7719
0.016777,-1.4909
0.016957,-1.3334
0.017138,-1.3427
0.017318,-1.3637
0.017499,-1.3837
0.017679,-1.3965
0.01786,-1.407
0.01804,-1.3106
0.018221,-1.3054
0.018401,-1.1734
0.018582,-1.2332
0.018762,-1.3701
0.018943,-1.399
0.019123,-1.2713
0.019304,-1.1107
0.019484,-0.93784
0.019665,-0.95183
0.019845,-0.99333
0.020025,-1.0246
0.020206,-1.0079
0.020386,-0.91728
0.020567,-0.86883
0.020747,-0.86511
0.020928,-0.90741
0.021108,-0.93845
0.021289,-0.90308
0.021469,-0.8529
0.02165,-0.88594
0.02183,-0.96741
0.022011,-1.0059
0.022191,-0.94107
0.022372,-0.89368
0.022552,-0.85666
0.022733,-0.81557
0.022913,-0.67016
0.023094,-0.75243
0.023274,-0.79506
0.023455,-0.80241
0.023635,-0.78196
0.023816,-0.75791
0.023996,-0.75091
0.024177,-0.80177
0.024357,-0.88984
0.024538,-0.91138
0.024718,-0.84775
0.024899,-0.79969
0.025079,-0.67008
0.02526,-0.59734
0.02544,-0.62684
0.025621,-0.63297
0.025801,-0.67128
0.025982,-0.74742
0.026162,-0.73667
0.026343,-0.73452
0.026523,-0.76788
0.026704,-0.82254
0.026884,-0.82273
0.027065,-0.80237
0.027245,-0.73542
0.027426,-0.68322
0.027606,-0.64408
0.027787,-0.64055
0.027967,-0.69591
0.028148,-0.68214
0.028328,-0.63295
0.028509,-0.59967
0.028689,-0.63847
0.02887,-0.6502
0.02905,-0.64577
0.029231,-0.62042
0.029411,-0.63745
0.029592,-0.66492
0.029772,-0.74691
0.029953,-0.80869
0.030133,-0.77229
0.030314,-0.67619
0.030494,-0.55734
0.030675,-0.49026
0.030855,-0.50283
0.031036,-0.52589
0.031216,-0.60681
0.031397,-0.65378
0.031577,-0.64089
0.031758,-0.62682
0.031938,-0.6339
0.032119,-0.65736
0.032299,-0.62444
0.03248,-0.56225
0.03266,-0.57331
0.032841,-0.61072
0.033021,-0.67785
0.033202,-0.67765
0.033382,-0.69152
0.033563,-0.77756
0.033743,-0.65368
0.033924,-0.63982
0.034104,-0.67691
0.034285,-0.6495
0.034465,-0.62547
0.034645,-0.64011
0.034826,-0.69667
0.035006,-0.65557
0.035187,-0.61042
0.035367,-0.57276
0.035548,-0.58274
0.035728,-0.60287
0.035909,-0.57855

File: SAXS_IvsQ_1e-4ppm_SiO2_H2O.csv
0.0017955,27.816
0.001976,80.711
0.0021565,158.04
0.0023369,182.68
0.0025174,116.87
0.0026979,101.3
0.0028784,86.555
0.0030589,68.099
0.0032394,54.549
0.0034199,44.218
0.0036004,36.815
0.0037809,28.535
0.0039614,22.983
0.0041419,17.106
0.0043224,13.283
0.0045029,10.84
0.0046834,9.7367
0.0048639,9.2661
0.0050444,5.3094
0.0052249,4.7545
0.0054054,4.3986
0.0055859,3.5897
0.0057664,3.2194
0.0059469,2.9735
0.0061274,2.3115
0.0063079,1.5347
0.0064883,1.0735
0.0066688,0.63034
0.0068493,0.23446
0.0070298,0.27592
0.0072103,-0.21572
0.0073908,-1.0291
0.0075713,-0.96628
0.0077518,-1.0749
0.0079323,-1.6673
0.0081128,-1.7157
0.0082933,-1.4754
0.0084738,-1.5997
0.0086543,-1.4043
0.0088348,-1.1457
0.0090153,-1.2092
0.0091958,-1.3219
0.0093763,-1.4029
0.0095568,-1.5001
0.0097373,-1.8751
0.0099178,-2.0376
0.010098,-1.9508
0.010279,-2.021
0.010459,-2.12
0.01064,-2.1418
0.01082,-2.0742
0.011001,-1.8686
0.011181,-1.8509
0.011362,-1.8468
0.011542,-1.9191
0.011723,-1.9821
0.011903,-1.869
0.012084,-1.8877
0.012264,-2.3372
0.012445,-2.0845
0.012625,-1.603
0.012806,-1.4451
0.012986,-1.5825
0.013167,-1.9487
0.013347,-2.0097
0.013528,-1.817
0.013708,-1.4688
0.013889,-1.3497
0.014069,-1.3091
0.01425,-1.4498
0.01443,-1.4553
0.014611,-1.3681
0.014791,-1.2931
0.014972,-1.2868
0.015152,-1.4765
0.015333,-1.4362
0.015513,-1.2204
0.015694,-1.0201
0.015874,-0.97592
0.016055,-1.0346
0.016235,-1.052
0.016416,-0.99138
0.016596,-1.1841
0.016777,-1.176
0.016957,-1.0709
0.017138,-0.972
0.017318,-0.9099
0.017499,-0.88617
0.017679,-0.951
0.01786,-1.0181
0.01804,-1.0014
0.018221,-0.93984
0.018401,-0.77088
0.018582,-0.75565
0.018762,-0.85391
0.018943,-0.91174
0.019123,-0.92401
0.019304,-0.87395
0.019484,-0.75054
0.019665,-0.69648
0.019845,-0.74046
0.020025,-0.73975
0.020206,-0.67854
0.020386,-0.64423
0.020567,-0.62366
0.020747,-0.60028
0.020928,-0.58375
0.021108,-0.60154
0.021289,-0.60653
0.021469,-0.61871
0.02165,-0.59447
0.02183,-0.6003
0.022011,-0.57342
0.022191,-0.52654
0.022372,-0.55056
0.022552,-0.64376
0.022733,-0.7109
0.022913,-0.69004
0.023094,-0.67906
0.023274,-0.71883
0.023455,-0.68214
0.023635,-0.65085
0.023816,-0.58194
0.023996,-0.55437
0.024177,-0.54766
0.024357,-0.5768
0.024538,-0.6183
0.024718,-0.59652
0.024899,-0.54182
0.025079,-0.55047
0.02526,-0.52288
0.02544,-0.52143
0.025621,-0.52398
0.025801,-0.53426
0.025982,-0.51386
0.026162,-0.51834
0.026343,-0.51859
0.026523,-0.45526
0.026704,-0.39364
0.026884,-0.40635
0.027065,-0.46405
0.027245,-0.47708
0.027426,-0.4711
0.027606,-0.45984
0.027787,-0.52533
0.027967,-0.61112
0.028148,-0.62447
0.028328,-0.55131
0.028509,-0.46092
0.028689,-0.44764
0.02887,-0.41015
0.02905,-0.40694
0.029231,-0.38976
0.029411,-0.39844
0.029592,-0.43444
0.029772,-0.50606
0.029953,-0.56233
0.030133,-0.53285
0.030314,-0.42503
0.030494,-0.35699
0.030675,-0.35885
0.030855,-0.38448
0.031036,-0.38249
0.031216,-0.38598
0.031397,-0.40576
0.031577,-0.39005
0.031758,-0.38845
0.031938,-0.37
0.032119,-0.41468
0.032299,-0.40866
0.03248,-0.37517
0.03266,-0.38932
0.032841,-0.4328
0.033021,-0.45313
0.033202,-0.41563
0.033382,-0.3847
0.033563,-0.49446
0.033743,-0.41777
0.033924,-0.45148
0.034104,-0.51129
0.034285,-0.52149
0.034465,-0.5034
0.034645,-0.49964
0.034826,-0.47331
0.035006,-0.43255
0.035187,-0.4054
0.035367,-0.32851
0.035548,-0.34651
0.035728,-0.41784
0.035909,-0.44992