Folder: Internship_2019-2020/internship/originals/internship/data

Note: internship/originals/internship/data/flow_hs104_177.txt
# file created by $Id: average_rebin_scans 131 2018-07-09 19:48:33Z dndadmin $
# using q from column 2, I from column 3 and sigma(I) from column 4.
# saxs scale = 1.000000
# saxs constant = 0.000000
# maxs scale = 1.000000
# maxs constant = 0.000000
# waxs scale = 1.000000
# waxs constant = 0.000000
# sigma cutoff from Chauvenet's criterion based on sigma(I) from column 4
# bubble rejection sigma cutoff from Chauvenet's criterion
# postscale value cutoff = -10.000000
# 0.001000 <= allowed saxs q <= 100.000000
# 0.001000 <= allowed maxs q <= 100.000000
# 0.001000 <= allowed waxs q <= 100.000000
# variance is smoothed over 1 bins
# a file will be rejected if more than 0.25 times its points are rejected
# use original bins
#   File list input:
#     flow/plot_files/flow_hs104_177_0000.txt 
#     flow/plot_files/flow_hs104_177_0001.txt 
#     flow/plot_files/flow_hs104_177_0002.txt 
#     flow/plot_files/flow_hs104_177_0003.txt 
#     flow/plot_files/flow_hs104_177_0004.txt 
#     flow/plot_files/flow_hs104_177_0005.txt 
#     flow/plot_files/flow_hs104_177_0006.txt 
#     flow/plot_files/flow_hs104_177_0007.txt 
#     flow/plot_files/flow_hs104_177_0008.txt 
#     flow/plot_files/flow_hs104_177_0009.txt 
#
# *** read in points which are within q and value cutoffs ***
# flow/plot_files/flow_hs104_177_0000.txt has 1059 valid points, 0 outside the q cutoffs, and 0 less than the -10.0 cutoff
# flow/plot_files/flow_hs104_177_0001.txt has 1059 valid points, 0 outside the q cutoffs, and 0 less than the -10.0 cutoff
# flow/plot_files/flow_hs104_177_0002.txt has 1059 valid points, 0 outside the q cutoffs, and 0 less than the -10.0 cutoff
# flow/plot_files/flow_hs104_177_0003.txt has 1059 valid points, 0 outside the q cutoffs, and 0 less than the -10.0 cutoff
# flow/plot_files/flow_hs104_177_0004.txt has 1059 valid points, 0 outside the q cutoffs, and 0 less than the -10.0 cutoff
# flow/plot_files/flow_hs104_177_0005.txt has 1059 valid points, 0 outside the q cutoffs, and 0 less than the -10.0 cutoff
# flow/plot_files/flow_hs104_177_0006.txt has 1059 valid points, 0 outside the q cutoffs, and 0 less than the -10.0 cutoff
# flow/plot_files/flow_hs104_177_0007.txt has 1059 valid points, 0 outside the q cutoffs, and 0 less than the -10.0 cutoff
# flow/plot_files/flow_hs104_177_0008.txt has 1059 valid points, 0 outside the q cutoffs, and 0 less than the -10.0 cutoff
# flow/plot_files/flow_hs104_177_0009.txt has 1059 valid points, 0 outside the q cutoffs, and 0 less than the -10.0 cutoff
# 10590 total points read in
# *** initial unbinned Chauvenet's criterion outlier file (ie bubble) rejection ***
# *** rebinning and final rejection cycles ***
# flow/plot_files/flow_hs104_177_0000.txt has had 53 points rejected as outliers
# flow/plot_files/flow_hs104_177_0001.txt has had 69 points rejected as outliers
# flow/plot_files/flow_hs104_177_0002.txt has had 68 points rejected as outliers
# flow/plot_files/flow_hs104_177_0003.txt has had 63 points rejected as outliers
#

Note: internship/originals/internship/data/flow_hs104_178.txt
# file created by $Id: average_rebin_scans 131 2018-07-09 19:48:33Z dndadmin $
# using q from column 2, I from column 3 and sigma(I) from column 4.
# saxs scale = 1.000000
# saxs constant = 0.000000
# maxs scale = 1.000000
# maxs constant = 0.000000
# waxs scale = 1.000000
# waxs constant = 0.000000
# sigma cutoff from Chauvenet's criterion based on sigma(I) from column 4
# bubble rejection sigma cutoff from Chauvenet's criterion
# postscale value cutoff = -10.000000
# 0.001000 <= allowed saxs q <= 100.000000
# 0.001000 <= allowed maxs q <= 100.000000
# 0.001000 <= allowed waxs q <= 100.000000
# variance is smoothed over 1 bins
# a file will be rejected if more than 0.25 times its points are rejected
# use original bins
#   File list input:
#     flow/plot_files/flow_hs104_178_0000.txt 
#     flow/plot_files/flow_hs104_178_0001.txt 
#     flow/plot_files/flow_hs104_178_0002.txt 
#     flow/plot_files/flow_hs104_178_0003.txt 
#     flow/plot_files/flow_hs104_178_0004.txt 
#     flow/plot_files/flow_hs104_178_0005.txt 
#     flow/plot_files/flow_hs104_178_0006.txt 
#     flow/plot_files/flow_hs104_178_0007.txt 
#     flow/plot_files/flow_hs104_178_0008.txt 
#     flow/plot_files/flow_hs104_178_0009.txt 
#
# *** read in points which are within q and value cutoffs ***
# flow/plot_files/flow_hs104_178_0000.txt has 1059 valid points, 0 outside the q cutoffs, and 0 less than the -10.0 cutoff
# flow/plot_files/flow_hs104_178_0001.txt has 1059 valid points, 0 outside the q cutoffs, and 0 less than the -10.0 cutoff
# flow/plot_files/flow_hs104_178_0002.txt has 1059 valid points, 0 outside the q cutoffs, and 0 less than the -10.0 cutoff
# flow/plot_files/flow_hs104_178_0003.txt has 1059 valid points, 0 outside the q cutoffs, and 0 less than the -10.0 cutoff
# flow/plot_files/flow_hs104_178_0004.txt has 1059 valid points, 0 outside the q cutoffs, and 0 less than the -10.0 cutoff
# flow/plot_files/flow_hs104_178_0005.txt has 1059 valid points, 0 outside the q cutoffs, and 0 less than the -10.0 cutoff
# flow/plot_files/flow_hs104_178_0006.txt has 1059 valid points, 0 outside the q cutoffs, and 0 less than the -10.0 cutoff
# flow/plot_files/flow_hs104_178_0007.txt has 1059 valid points, 0 outside the q cutoffs, and 0 less than the -10.0 cutoff
# flow/plot_files/flow_hs104_178_0008.txt has 1059 valid points, 0 outside the q cutoffs, and 0 less than the -10.0 cutoff
# flow/plot_files/flow_hs104_178_0009.txt has 1059 valid points, 0 outside the q cutoffs, and 0 less than the -10.0 cutoff
# 10590 total points read in
# *** initial unbinned Chauvenet's criterion outlier file (ie bubble) rejection ***
# *** rebinning and final rejection cycles ***
# flow/plot_files/flow_hs104_178_0000.txt has had 73 points rejected as outliers
# flow/plot_files/flow_hs104_178_0001.txt has had 81 points rejected as outliers
# flow/plot_files/flow_hs104_178_0002.txt has had 64 points rejected as outliers
# flow/plot_files/flow_hs104_178_0003.txt has had 69 points rejected as outliers
#

Note: internship/README.txt
20190607_saxs_calc_joey_summer_student.ppt: powerpoint presentation with general context. Last slide includes first assignment (rough notes and plot)

data: folder contains raw data--most useful will be "nanoparticle_scattering_data.csv" which is in the "tidy" format already for easy plotting

analysis: folder contains the Jupyter notebook "flow_bkgd_characterization.ipynb" with my analysis of the data, as well as two function libraries: 1) "saxs.py" for analysis methods and 2) "saxsplot.py" for plotting methods

File: SAXS_IvsQ_1e-6ppm_SiO2_H2O.csv
0.0017955,4.5098
0.001976,24.171
0.0021565,71.909
0.0023369,96.858
0.0025174,44.484
0.0026979,45.488
0.0028784,44.168
0.0030589,34.887
0.0032394,27.835
0.0034199,22.592
0.0036004,20.04
0.0037809,16.232
0.0039614,11.56
0.0041419,5.9592
0.0043224,5.93
0.0045029,5.728
0.0046834,5.1552
0.0048639,4.2189
0.0050444,2.7009
0.0052249,3.0058
0.0054054,4.1023
0.0055859,3.7116
0.0057664,2.772
0.0059469,2.1277
0.0061274,2.4116
0.0063079,2.4902
0.0064883,1.7558
0.0066688,1.5153
0.0068493,1.5671
0.0070298,1.4175
0.0072103,0.89567
0.0073908,0.041196
0.0075713,0.36826
0.0077518,0.6955
0.0079323,0.76349
0.0081128,0.8368
0.0082933,0.98708
0.0084738,0.90021
0.0086543,1.1308
0.0088348,1.0975
0.0090153,0.90492
0.0091958,0.71806
0.0093763,0.39369
0.0095568,0.29148
0.0097373,0.15576
0.0099178,0.19046
0.010098,0.34976
0.010279,0.26986
0.010459,0.29116
0.01064,0.28287
0.01082,0.35875
0.011001,0.51751
0.011181,0.62304
0.011362,0.66776
0.011542,0.59353
0.011723,0.33276
0.011903,0.22015
0.012084,0.22688
0.012264,-0.25227
0.012445,0.020927
0.012625,0.47719
0.012806,0.50538
0.012986,0.38463
0.013167,0.16565
0.013347,0.030839
0.013528,0.043787
0.013708,0.12788
0.013889,0.15078
0.014069,0.18703
0.01425,0.19939
0.01443,0.15462
0.014611,0.16558
0.014791,0.24488
0.014972,0.20002
0.015152,0.021531
0.015333,-0.01561
0.015513,0.10052
0.015694,0.22778
0.015874,0.4028
0.016055,0.47237
0.016235,0.37656
0.016416,0.27226
0.016596,0.21316
0.016777,0.30325
0.016957,0.38058
0.017138,0.36074
0.017318,0.36903
0.017499,0.30913
0.017679,0.098797
0.01786,-0.092863
0.01804,-0.035918
0.018221,0.040204
0.018401,0.13263
0.018582,0.074633
0.018762,0.023357
0.018943,0.054034
0.019123,0.08197
0.019304,0.085848
0.019484,0.10093
0.019665,0.12929
0.019845,0.14467
0.020025,0.12003
0.020206,0.057581
0.020386,0.065186
0.020567,0.1045
0.020747,0.10558
0.020928,0.14705
0.021108,0.09254
0.021289,0.062001
0.021469,0.084545
0.02165,0.20342
0.02183,0.20119
0.022011,0.17568
0.022191,0.14936
0.022372,0.1592
0.022552,0.12768
0.022733,0.040886
0.022913,0.065569
0.023094,0.14326
0.023274,0.12578
0.023455,0.09807
0.023635,0.070103
0.023816,0.038863
0.023996,0.019663
0.024177,0.079772
0.024357,0.072092
0.024538,0.014419
0.024718,0.033231
0.024899,0.10705
0.025079,0.14488
0.02526,0.15819
0.02544,0.090256
0.025621,0.012485
0.025801,-0.015563
0.025982,0.061308
0.026162,0.11985
0.026343,0.12568
0.026523,0.091209
0.026704,0.052822
0.026884,0.016158
0.027065,-0.03752
0.027245,-0.033558
0.027426,0.016733
0.027606,0.0078984
0.027787,-0.037403
0.027967,-0.097301
0.028148,-0.055352
0.028328,-0.00087222
0.028509,0.13167
0.028689,0.1695
0.02887,0.11668
0.02905,0.042932
0.029231,0.061614
0.029411,0.070643
0.029592,0.0099622
0.029772,-0.12688
0.029953,-0.1442
0.030133,-0.04238
0.030314,0.073965
0.030494,0.13061
0.030675,0.12631
0.030855,0.069308
0.031036,0.048298
0.031216,0.024016
0.031397,-0.0383
0.031577,-0.032008
0.031758,0.013344
0.031938,0.031215
0.032119,0.019183
0.032299,0.016038
0.03248,0.044178
0.03266,0.071387
0.032841,0.14024
0.033021,0.1255
0.033202,0.11278
0.033382,0.091923
0.033563,-0.024773
0.033743,0.048866
0.033924,0.07599
0.034104,0.021425
0.034285,0.035735
0.034465,0.0086905
0.034645,-0.030187
0.034826,-0.03204
0.035006,0.0019642
0.035187,-0.012409
0.035367,0.050413
0.035548,0.042514
0.035728,0.0065862
0.035909,0.012315

File: SAXS_IvsQ_5e1ppm_SiO2_H2O.csv
0.0017955,439.87
0.001976,1421
0.0021565,2658.3
0.0023369,3631
0.0025174,3996.9
0.0026979,4097.4
0.0028784,4062
0.0030589,4001.6
0.0032394,3939.3
0.0034199,3873.5
0.0036004,3798.4
0.0037809,3715.1
0.0039614,3638.3
0.0041419,3558.2
0.0043224,3479.4
0.0045029,3393.7
0.0046834,3305.6
0.0048639,3214.4
0.0050444,3124.1
0.0052249,3037
0.0054054,2945.8
0.0055859,2851.9
0.0057664,2764
0.0059469,2674.2
0.0061274,2581.7
0.0063079,2492.6
0.0064883,2404.2
0.0066688,2314.2
0.0068493,2228.4
0.0070298,2143.3
0.0072103,2056.7
0.0073908,1971.7
0.0075713,1890
0.0077518,1807.9
0.0079323,1729.2
0.0081128,1650.3
0.0082933,1572.7
0.0084738,1498
0.0086543,1426.4
0.0088348,1357.7
0.0090153,1288.9
0.0091958,1221.2
0.0093763,1154.5
0.0095568,1091.2
0.0097373,1030.1
0.0099178,970.93
0.010098,914.6
0.010279,859.32
0.010459,806.34
0.01064,755.88
0.01082,706.74
0.011001,659.75
0.011181,614.08
0.011362,569.92
0.011542,527.98
0.011723,489.01
0.011903,451.88
0.012084,416.48
0.012264,382.3
0.012445,350.34
0.012625,320.42
0.012806,292.42
0.012986,266.48
0.013167,241.7
0.013347,218.57
0.013528,197.26
0.013708,177.35
0.013889,158.76
0.014069,141.31
0.01425,125.35
0.01443,110.76
0.014611,97.725
0.014791,86.033
0.014972,75.171
0.015152,65.175
0.015333,56.18
0.015513,48.19
0.015694,41.197
0.015874,35.121
0.016055,29.762
0.016235,25.09
0.016416,21.107
0.016596,17.904
0.016777,15.373
0.016957,13.26
0.017138,11.525
0.017318,10.186
0.017499,9.1396
0.017679,8.3835
0.01786,8.0057
0.01804,8.0846
0.018221,8.4319
0.018401,8.9144
0.018582,9.4152
0.018762,9.9756
0.018943,10.672
0.019123,11.443
0.019304,12.366
0.019484,13.372
0.019665,14.417
0.019845,15.542
0.020025,16.53
0.020206,17.417
0.020386,18.337
0.020567,19.198
0.020747,19.922
0.020928,20.521
0.021108,21.024
0.021289,21.514
0.021469,22.045
0.02165,22.407
0.02183,22.52
0.022011,22.488
0.022191,22.498
0.022372,22.554
0.022552,22.603
0.022733,22.333
0.022913,21.974
0.023094,21.616
0.023274,21.207
0.023455,20.758
0.023635,20.229
0.023816,19.523
0.023996,18.774
0.024177,18.13
0.024357,17.418
0.024538,16.455
0.024718,15.611
0.024899,14.843
0.025079,14.098
0.02526,13.357
0.02544,12.595
0.025621,11.783
0.025801,10.867
0.025982,10.073
0.026162,9.3429
0.026343,8.5915
0.026523,7.7926
0.026704,7.0224
0.026884,6.3642
0.027065,5.7363
0.027245,5.1644
0.027426,4.6046
0.027606,4.075
0.027787,3.5317
0.027967,3.0346
0.028148,2.6568
0.028328,2.3905
0.028509,2.1993
0.028689,1.9865
0.02887,1.7541
0.02905,1.625
0.029231,1.5115
0.029411,1.3604
0.029592,1.1746
0.029772,1.0727
0.029953,1.1196
0.030133,1.2714
0.030314,1.4388
0.030494,1.5756
0.030675,1.7055
0.030855,1.6651
0.031036,1.7414
0.031216,1.8996
0.031397,2.0892
0.031577,2.2695
0.031758,2.4519
0.031938,2.6116
0.032119,2.7841
0.032299,3.0304
0.03248,3.2758
0.03266,3.4264
0.032841,3.5675
0.033021,3.673
0.033202,3.8088
0.033382,3.9089
0.033563,3.894
0.033743,4.0449
0.033924,4.1722
0.034104,4.2663
0.034285,4.3841
0.034465,4.4696
0.034645,4.5027
0.034826,4.4942
0.035006,4.4324
0.035187,4.2025
0.035367,4.0483
0.035548,3.9361
0.035728,3.8145
0.035909,3.6727